{
  "resourceType": "CarePlan",
  "id": "f003",
  "text": {
    "status": "generated",
    "div": "\u003cdiv xmlns\u003d\"http://www.w3.org/1999/xhtml\"\u003e\u003cp\u003e\u003cb\u003eGenerated Narrative\u003c/b\u003e\u003c/p\u003e\u003cp\u003e\u003cb\u003eid\u003c/b\u003e: f003\u003c/p\u003e\u003cp\u003e\u003cb\u003eidentifier\u003c/b\u003e: id: CP3953 (OFFICIAL)\u003c/p\u003e\u003cp\u003e\u003cb\u003estatus\u003c/b\u003e: completed\u003c/p\u003e\u003cp\u003e\u003cb\u003eintent\u003c/b\u003e: plan\u003c/p\u003e\u003cp\u003e\u003cb\u003esubject\u003c/b\u003e: \u003ca\u003eP. van de Heuvel. Generated Summary: id: f001; id: 738472983 (USUAL), id: ?ngen-9? (USUAL); active; Pieter van de Heuvel ; ph: 0648352638(MOBILE), p.heuvel@gmail.com(HOME); gender: male; birthDate: 1944-11-17; \u003cspan\u003eGetrouwd\u003c/span\u003e; multipleBirth\u003c/a\u003e\u003c/p\u003e\u003cp\u003e\u003cb\u003eperiod\u003c/b\u003e: 08/03/2013 7:00:10 PM --\u0026gt; 08/03/2013 7:30:10 PM\u003c/p\u003e\u003cp\u003e\u003cb\u003ecareTeam\u003c/b\u003e: \u003ca\u003e \u003c/a\u003e\u003c/p\u003e\u003cblockquote\u003e\u003cp\u003e\u003cb\u003eid\u003c/b\u003e: careteam\u003c/p\u003e\u003ch3\u003eParticipants\u003c/h3\u003e\u003ctable\u003e\u003ctr\u003e\u003ctd\u003e-\u003c/td\u003e\u003ctd\u003e\u003cb\u003eMember\u003c/b\u003e\u003c/td\u003e\u003c/tr\u003e\u003ctr\u003e\u003ctd\u003e*\u003c/td\u003e\u003ctd\u003e\u003ca\u003eE.M. van den broek. Generated Summary: id: f001; id: 938273695 (OFFICIAL), id: 129IDH4OP733 (USUAL); Eric van den broek (OFFICIAL); ph: 0205568263(WORK), E.M.vandenbroek@bmc.nl(WORK), fax: 0205664440(WORK); gender: male; birthDate: 1975-12-07\u003c/a\u003e\u003c/td\u003e\u003c/tr\u003e\u003c/table\u003e\u003c/blockquote\u003e\u003cp\u003e\u003cb\u003eaddresses\u003c/b\u003e: \u003c/p\u003e\u003cp\u003e\u003cb\u003egoal\u003c/b\u003e: \u003ca\u003e \u003c/a\u003e\u003c/p\u003e\u003cblockquote\u003e\u003cp\u003e\u003cb\u003eid\u003c/b\u003e: goal\u003c/p\u003e\u003cp\u003e\u003cb\u003elifecycleStatus\u003c/b\u003e: completed\u003c/p\u003e\u003cp\u003e\u003cb\u003eachievementStatus\u003c/b\u003e: \u003cspan\u003eAchieved\u003c/span\u003e\u003c/p\u003e\u003cp\u003e\u003cb\u003edescription\u003c/b\u003e: \u003cspan\u003eRetropharyngeal abscess removal\u003c/span\u003e\u003c/p\u003e\u003cp\u003e\u003cb\u003esubject\u003c/b\u003e: \u003ca\u003eP. van de Heuvel. Generated Summary: id: f001; id: 738472983 (USUAL), id: ?ngen-9? (USUAL); active; Pieter van de Heuvel ; ph: 0648352638(MOBILE), p.heuvel@gmail.com(HOME); gender: male; birthDate: 1944-11-17; \u003cspan\u003eGetrouwd\u003c/span\u003e; multipleBirth\u003c/a\u003e\u003c/p\u003e\u003cp\u003e\u003cb\u003enote\u003c/b\u003e: goal accomplished without complications\u003c/p\u003e\u003c/blockquote\u003e\u003cblockquote\u003e\u003cp\u003e\u003cb\u003eactivity\u003c/b\u003e\u003c/p\u003e\u003ch3\u003eDetails\u003c/h3\u003e\u003ctable\u003e\u003ctr\u003e\u003ctd\u003e-\u003c/td\u003e\u003ctd\u003e\u003cb\u003eKind\u003c/b\u003e\u003c/td\u003e\u003ctd\u003e\u003cb\u003eCode\u003c/b\u003e\u003c/td\u003e\u003ctd\u003e\u003cb\u003eStatus\u003c/b\u003e\u003c/td\u003e\u003ctd\u003e\u003cb\u003eDoNotPerform\u003c/b\u003e\u003c/td\u003e\u003ctd\u003e\u003cb\u003eScheduled[x]\u003c/b\u003e\u003c/td\u003e\u003ctd\u003e\u003cb\u003ePerformer\u003c/b\u003e\u003c/td\u003e\u003c/tr\u003e\u003ctr\u003e\u003ctd\u003e*\u003c/td\u003e\u003ctd\u003eServiceRequest\u003c/td\u003e\u003ctd\u003e\u003cspan\u003eIncision of retropharyngeal abscess\u003c/span\u003e\u003c/td\u003e\u003ctd\u003ecompleted\u003c/td\u003e\u003ctd\u003etrue\u003c/td\u003e\u003ctd\u003e2011-06-27T09:30:10+01:00\u003c/td\u003e\u003ctd\u003e\u003ca\u003eE.M. van den broek. Generated Summary: id: f001; id: 938273695 (OFFICIAL), id: 129IDH4OP733 (USUAL); Eric van den broek (OFFICIAL); ph: 0205568263(WORK), E.M.vandenbroek@bmc.nl(WORK), fax: 0205664440(WORK); gender: male; birthDate: 1975-12-07\u003c/a\u003e\u003c/td\u003e\u003c/tr\u003e\u003c/table\u003e\u003c/blockquote\u003e\u003c/div\u003e"
  },
  "contained": [
    {
      "resourceType": "CareTeam",
      "id": "careteam",
      "participant": [
        {
          "member": {
            "reference": "Practitioner/f001",
            "display": "E.M. van den broek"
          }
        }
      ]
    },
    {
      "resourceType": "Goal",
      "id": "goal",
      "lifecycleStatus": "completed",
      "achievementStatus": {
        "coding": [
          {
            "system": "http://terminology.hl7.org/CodeSystem/goal-achievement",
            "code": "achieved",
            "display": "Achieved"
          }
        ],
        "text": "Achieved"
      },
      "description": {
        "text": "Retropharyngeal abscess removal"
      },
      "subject": {
        "reference": "Patient/f001",
        "display": "P. van de Heuvel"
      },
      "note": [
        {
          "text": "goal accomplished without complications"
        }
      ]
    }
  ],
  "identifier": [
    {
      "use": "official",
      "system": "http://www.bmc.nl/zorgportal/identifiers/careplans",
      "value": "CP3953"
    }
  ],
  "status": "completed",
  "intent": "plan",
  "subject": {
    "reference": "Patient/f001",
    "display": "P. van de Heuvel"
  },
  "period": {
    "start": "2013-03-08T09:00:10+01:00",
    "end": "2013-03-08T09:30:10+01:00"
  },
  "careTeam": [
    {
      "reference": "#careteam"
    }
  ],
  "addresses": [
    {
      "reference": {
        "reference": "Condition/f201",
        "display": "?????"
      }
    }
  ],
  "goal": [
    {
      "reference": "#goal"
    }
  ],
  "activity": [
    {
      "detail": {
        "kind": "ServiceRequest",
        "code": {
          "coding": [
            {
              "system": "http://snomed.info/sct",
              "code": "172960003",
              "display": "Incision of retropharyngeal abscess"
            }
          ]
        },
        "status": "completed",
        "doNotPerform": true,
        "scheduledString": "2011-06-27T09:30:10+01:00",
        "performer": [
          {
            "reference": "Practitioner/f001",
            "display": "E.M. van den broek"
          }
        ]
      }
    }
  ],
  "meta": {
    "tag": [
      {
        "system": "http://terminology.hl7.org/CodeSystem/v3-ActReason",
        "code": "HTEST",
        "display": "test health data"
      }
    ]
  }
}