{
  "resourceType": "MedicinalProductDefinition",
  "id": "drug-and-device",
  "text": {
    "status": "generated",
    "div": "\u003cdiv xmlns\u003d\"http://www.w3.org/1999/xhtml\"\u003e\u003cp\u003e\u003cb\u003eGenerated Narrative\u003c/b\u003e\u003c/p\u003e\u003cp\u003e\u003cb\u003eid\u003c/b\u003e: drug-and-device\u003c/p\u003e\u003cp\u003e\u003cb\u003eidentifier\u003c/b\u003e: id: Wonderdrug+\u003c/p\u003e\u003cp\u003e\u003cb\u003ecombinedPharmaceuticalDoseForm\u003c/b\u003e: \u003cspan\u003esolution for injection\u003c/span\u003e\u003c/p\u003e\u003cp\u003e\u003cb\u003epackagedMedicinalProduct\u003c/b\u003e: \u003ca\u003e \u003c/a\u003e\u003c/p\u003e\u003cblockquote\u003e\u003cp\u003e\u003cb\u003eid\u003c/b\u003e: package\u003c/p\u003e\u003cblockquote\u003e\u003cp\u003e\u003cb\u003epackage\u003c/b\u003e\u003c/p\u003e\u003cblockquote\u003e\u003cp\u003e\u003cb\u003econtainedItem\u003c/b\u003e\u003c/p\u003e\u003cp\u003e\u003cb\u003eitem\u003c/b\u003e: \u003ca\u003e#liquidItem\u003c/a\u003e\u003c/p\u003e\u003cp\u003e\u003cb\u003eamount\u003c/b\u003e: 20 ml\u003c/p\u003e\u003c/blockquote\u003e\u003cblockquote\u003e\u003cp\u003e\u003cb\u003econtainedItem\u003c/b\u003e\u003c/p\u003e\u003cp\u003e\u003cb\u003eitem\u003c/b\u003e: \u003ca\u003e#syringeDevice\u003c/a\u003e\u003c/p\u003e\u003c/blockquote\u003e\u003c/blockquote\u003e\u003c/blockquote\u003e\u003ch3\u003eNames\u003c/h3\u003e\u003ctable\u003e\u003ctr\u003e\u003ctd\u003e-\u003c/td\u003e\u003ctd\u003e\u003cb\u003eProductName\u003c/b\u003e\u003c/td\u003e\u003c/tr\u003e\u003ctr\u003e\u003ctd\u003e*\u003c/td\u003e\u003ctd\u003eWonderdrug+ liquid 20ml\u003c/td\u003e\u003c/tr\u003e\u003c/table\u003e\u003c/div\u003e"
  },
  "contained": [
    {
      "resourceType": "PackagedProductDefinition",
      "id": "package",
      "package": [
        {
          "containedItem": [
            {
              "item": [
                {
                  "reference": "#liquidItem"
                }
              ],
              "amountQuantity": {
                "value": 20,
                "unit": "ml"
              }
            },
            {
              "item": [
                {
                  "reference": "#syringeDevice"
                }
              ]
            }
          ]
        }
      ]
    },
    {
      "resourceType": "DeviceDefinition",
      "id": "syringeDevice",
      "type": {
        "text": "syringe"
      }
    },
    {
      "resourceType": "ManufacturedItemDefinition",
      "id": "liquidItem",
      "manufacturedDoseForm": {
        "coding": [
          {
            "system": "http://example.org.uk/fhir/doseform",
            "code": "solution for injection"
          }
        ]
      },
      "ingredient": [
        {
          "reference": "#ingredient"
        }
      ]
    },
    {
      "resourceType": "Ingredient",
      "id": "ingredient",
      "role": {
        "coding": [
          {
            "system": "http://example.org.uk/fhir/ingredientRole",
            "code": "active"
          }
        ]
      },
      "substance": {
        "codeCodeableConcept": {
          "coding": [
            {
              "system": "http://example.org.uk/fhir/ingredients",
              "code": "12345",
              "display": "Wondersubstance BP"
            }
          ]
        }
      }
    }
  ],
  "identifier": [
    {
      "system": "http://example.org.uk/fhir/product",
      "value": "Wonderdrug+"
    }
  ],
  "combinedPharmaceuticalDoseForm": {
    "coding": [
      {
        "system": "http://example.org.uk/fhir/doseform",
        "code": "solution for injection"
      }
    ]
  },
  "packagedMedicinalProduct": [
    {
      "reference": "#package"
    }
  ],
  "name": [
    {
      "productName": "Wonderdrug+ liquid 20ml"
    }
  ],
  "meta": {
    "tag": [
      {
        "system": "http://terminology.hl7.org/CodeSystem/v3-ActReason",
        "code": "HTEST",
        "display": "test health data"
      }
    ]
  }
}